Folder: labflow/sample

Note: sample/PDF#04-0850.txt
PDF#04-0850: QM=Star/Calculated; d=Other/Unknown; I=(Unknown)
Nickel, syn
Ni	
Radiation=CuKa1	Lambda=1.5406	Filter=
Calibration=	d-Cutoff=	I/Ic(RIR)=
Ref= Level-1 PDF

Crystal System=	Z=	mp=
Cell=	Pearson=
Density(c)=	Density(m)=	Mwt=	Vol=	
Ref= Ibid.

Strong Line: 2.03/X  1.76/4  1.25/2  1.06/2  0.79/2  0.81/1  1.02/1

d(A)     I(f)   I(v)  h  k  l  n^2  2-Theta   Theta  1/(2d)   2pi/d  
 2.034  100.0  100.0  1  1  1        44.507  22.253  0.2458  3.0891
 1.762   42.0   48.0  2  0  0        51.846  25.923  0.2838  3.5659
 1.246   21.0   34.0  2  2  0        76.370  38.185  0.4013  5.0427
 1.062   20.0   38.0  3  1  1        92.944  46.472  0.4706  5.9141
 1.017    7.0   14.0  2  2  2        98.446  49.223  0.4915  6.1769
 0.881    4.0    9.0  4  0  0       121.930  60.965  0.5675  7.1319
 0.808   14.0   35.0  3  3  1       144.669  72.335  0.6185  7.7724
 0.788   15.0   39.0  4  2  0       155.653  77.826  0.6345  7.9736

Note: sample/PDF#24-0735.txt
PDF#24-0735: QM=Star/Calculated; d=Other/Unknown; I=(Unknown)
Pyrolusite, syn
MnO2	
Radiation=CuKa1	Lambda=1.5406	Filter=
Calibration=	d-Cutoff=	I/Ic(RIR)=2.7
Ref= Level-1 PDF

Crystal System=	Z=	mp=
Cell=	Pearson=
Density(c)=	Density(m)=	Mwt=	Vol=	
Ref= Ibid.

Strong Line: 3.11/X  1.62/6  2.41/6  1.30/2  1.31/2  2.11/2  1.56/1  1.00/1

d(A)     I(f)   I(v)  h  k  l  n^2  2-Theta   Theta  1/(2d)   2pi/d  
 3.110  100.0   95.0  1  1  0        28.680  14.340  0.1608  2.0203
 2.407   55.0   67.0  1  0  1        37.328  18.664  0.2077  2.6104
 2.199    8.0   11.0  2  0  0        41.010  20.505  0.2274  2.8573
 2.110   16.0   22.0  1  1  1        42.823  21.411  0.2370  2.9778
 1.968    5.0    7.0  2  1  0        46.081  23.041  0.2541  3.1925
 1.623   55.0  100.0  2  1  1        56.652  28.326  0.3080  3.8704
 1.555   14.0   27.0  2  2  0        59.370  29.685  0.3215  4.0396
 1.437    8.0   16.0  0  0  2        64.828  32.414  0.3479  4.3724
 1.391    8.0   17.0  3  1  0        67.240  33.620  0.3594  4.5164
 1.367    1.0    2.0  2  2  1        68.554  34.277  0.3656  4.5940
 1.306   20.0   45.0  3  0  1        72.260  36.130  0.3827  4.8095
 1.304   20.0   45.0  1  1  2        72.382  36.191  0.3833  4.8165
 1.252    1.0    2.0  3  1  1        75.910  37.955  0.3992  5.0169
 1.219    1.0    2.0  3  2  0        78.365  39.182  0.4101  5.1535
 1.202    3.0    7.0  2  0  2        79.636  39.818  0.4157  5.2234
 1.160    1.0    3.0  2  1  2        83.182  41.591  0.4309  5.4147
 1.123    5.0   13.0  3  2  1        86.596  43.298  0.4452  5.5940
 1.100    2.0    5.0  4  0  0        88.895  44.447  0.4545  5.7120
 1.067    2.0    6.0  4  1  0        92.324  46.162  0.4682  5.8837
 1.055    6.0   17.0  2  2  2        93.724  46.862  0.4737  5.9522
 1.037    3.0    9.0  3  3  0        95.940  47.970  0.4822  6.0590
 0.999   11.0   32.0  3  1  2       100.786  50.393  0.5001  6.2844
 0.983    3.0    9.0  4  2  0       103.066  51.533  0.5082  6.3866
 0.936    3.0    9.0  1  0  3       110.762  55.381  0.5342  6.7128
 0.873    3.0   10.0  4  0  2       123.753  61.876  0.5725  7.1939
 0.862    3.0   10.0  5  1  0       126.420  63.210  0.5794  7.2815
 0.861    8.0   27.0  2  1  3       126.816  63.408  0.5805  7.2942
 0.856    1.0    3.0  4  1  2       128.086  64.043  0.5836  7.3342
 0.841    7.0   25.0  3  3  2       132.670  66.335  0.5945  7.4711

Note: sample/PDF#33-0893.txt
PDF#33-0893: QM=Star/Calculated; d=Other/Unknown; I=(Unknown)
Manganese Chromium Oxide
MnCrO4	
Radiation=CuKa1	Lambda=1.5406	Filter=
Calibration=	d-Cutoff=	I/Ic(RIR)=
Ref= Level-1 PDF

Crystal System=	Z=	mp=
Cell=	Pearson=
Density(c)=	Density(m)=	Mwt=	Vol=	
Ref= Ibid.

Strong Line: 3.13/X  2.42/6  1.63/4  2.42/4  2.12/2  1.63/2  1.56/2  1.31/2

d(A)     I(f)   I(v)  h  k  l  n^2  2-Theta   Theta  1/(2d)   2pi/d  
 3.130  100.0  100.0  1  1  0        28.493  14.247  0.1597  2.0074
 2.423   40.0   52.0  0  1  1        37.072  18.536  0.2064  2.5931
 2.416   60.0   78.0  1  0  1        37.184  18.592  0.2070  2.6007
 2.202    2.0    3.0  2  0  0        40.951  20.476  0.2271  2.8534
 2.121   20.0   30.0  1  1  1        42.590  21.295  0.2357  2.9624
 1.972    2.0    3.0  2  1  0        45.985  22.992  0.2535  3.1862
 1.635   20.0   38.0  1  2  1        56.214  28.107  0.3058  3.8429
 1.628   40.0   77.0  2  1  1        56.477  28.239  0.3071  3.8595
 1.562   15.0   30.0  2  2  0        59.094  29.547  0.3201  4.0225
 1.444   10.0   22.0  0  0  2        64.476  32.238  0.3463  4.3512
 1.393    2.0    4.0  3  1  0        67.141  33.571  0.3589  4.5105
 1.311   15.0   36.0  1  1  2        71.967  35.983  0.3814  4.7927

Note: sample/PDF#44-0141.txt
PDF#44-0141: QM=Star/Calculated; d=Other/Unknown; I=(Unknown)
Manganese Oxide
MnO2	
Radiation=CuKa1	Lambda=1.5406	Filter=
Calibration=	d-Cutoff=	I/Ic(RIR)=
Ref= Level-1 PDF

Crystal System=	Z=	mp=
Cell=	Pearson=
Density(c)=	Density(m)=	Mwt=	Vol=	
Ref= Ibid.

Strong Line: 2.39/X  3.09/8  1.53/6  4.89/5  1.83/5  6.92/4  1.35/4  1.63/3

d(A)     I(f)   I(v)  h  k  l  n^2  2-Theta   Theta  1/(2d)   2pi/d  
 6.919   37.0   13.0  1  1  0        12.784   6.392  0.0723  0.9081
 4.895   53.0   26.0  2  0  0        18.107   9.054  0.1021  1.2836
 3.462    5.0    3.0  2  2  0        25.711  12.856  0.1444  1.8149
 3.093   82.0   63.0  3  1  0        28.841  14.421  0.1617  2.0314
 2.447   24.0   23.0  4  0  0        36.696  18.348  0.2043  2.5677
 2.395  100.0  100.0  2  1  1        37.522  18.761  0.2088  2.6235
 2.307    9.0    9.0  3  3  0        39.010  19.505  0.2167  2.7235
 2.188    5.0    5.0  4  2  0        41.225  20.613  0.2285  2.8717
 2.151   28.0   31.0  3  0  1        41.968  20.984  0.2325  2.9211
 1.969    2.0    2.0  3  2  1        46.037  23.018  0.2538  3.1896
 1.917    8.0   10.0  5  1  0        47.373  23.686  0.2608  3.2769
 1.827   50.0   66.0  4  1  1        49.864  24.932  0.2736  3.4385
 1.730    1.0    1.0  4  4  0        52.855  26.428  0.2889  3.6304
 1.630   29.0   43.0  6  0  0        56.372  28.186  0.3066  3.8528
 1.616   10.0   15.0  4  3  1        56.927  28.464  0.3094  3.8876
 1.534   58.0   91.0  5  2  1        60.274  30.137  0.3259  4.0954
 1.431   15.0   25.0  0  0  2        65.108  32.554  0.3493  4.3892
 1.401    1.0    2.0  1  1  2        66.691  33.346  0.3568  4.4838
 1.383    1.0    2.0  7  1  0        67.648  33.824  0.3613  4.5405
 1.374    5.0    9.0  2  0  2        68.185  34.092  0.3638  4.5722
 1.347   35.0   62.0  5  4  1        69.711  34.856  0.3710  4.6618
 1.323    1.0    2.0  2  2  2        71.189  35.595  0.3778  4.7478
 1.299    8.0   15.0  3  1  2        72.711  36.356  0.3848  4.8355
 1.284    3.0    6.0  7  3  0        73.700  36.850  0.3893  4.8919
 1.235    4.0    8.0  4  0  2        77.160  38.580  0.4048  5.0868
 1.216   10.0   20.0  3  3  2        78.588  39.294  0.4111  5.1658
 1.153    2.0    4.0  6  6  0        83.818  41.909  0.4336  5.4485
 1.147    3.0    6.0  5  1  2        84.348  42.174  0.4358  5.4765
 1.117    2.0    4.0  7  4  1        87.148  43.574  0.4474  5.6225
 1.075    9.0   20.0  6  0  2        91.462  45.731  0.4648  5.8410
 0.994    2.0    5.0  7  1  2       101.470  50.735  0.5026  6.3154
 0.984    1.0    2.0  6  4  2       102.905  51.452  0.5077  6.3795
 0.975    2.0    5.0  8  5  1       104.362  52.181  0.5128  6.4436
 0.932    6.0   15.0  2  1  3       111.406  55.703  0.5363  6.7387
 0.898    2.0    5.0  6  6  2       118.135  59.067  0.5568  6.9969
 0.885    5.0   14.0  4  1  3       120.913  60.456  0.5647  7.0964

File: 000_2_2.txt
/////////////////////////////////////////////////////////////////////////////////
/// Profile Data Ascii Dump (XRD)                                             ///
/////////////////////////////////////////////////////////////////////////////////

  Group     : Standard
  Data      : 000_2_2
  File Name : 000_2_2.RAW

# Profile Datafile
          comment             =
          date & time         = 25-07-30 14:24:01

# Measurement Condition
    X-ray tube
          target              = Cu
          voltage             = 40.0 (kV)
          current             = 30.0 (mA)
    Slits
          divergence slit     = 1.00000 (deg)
          scatter slit        = 1.00000 (deg)
          receiving slit      = 0.30000 (mm)
    Scanning
          drive axis          = Theta-2Theta
          scan range          =   10.000 -   70.000
          scan mode           = Continuous Scan
          scan speed          =   3.0000 (deg/min)
          sampling pitch      =   0.0200 (deg)
          preset time         =   0.40 (sec)

# Data      [ Total No. = 3001 ]
  <2Theta>   <   I   >
    10.0000       492
    10.2200       458
    10.4400       462
    10.6600       416
    10.8800       426
    11.1000       436
    11.3200       398
    11.5400       434
    11.7600       426
    11.9800       418
    12.2000       376
    12.4200       398
    12.6400       378
    12.8600       374
    13.0800       404
    13.3000       448
    13.5200       396
    13.7400       418
    13.9600       400
    14.1800       450
    14.4000       434
    14.6200       426
    14.8400       448
    15.0600       448
    15.2800       442
    15.5000       430
    15.7200       434
    15.9400       462
    16.1600       432
    16.3800       442
    16.6000       468
    16.8200       428
    17.0400       480
    17.2600       470
    17.4800       436
    17.7000       482
    17.9200       480
    18.1400       540
    18.3600       540
    18.5800       478
    18.8000       528
    19.0200       518
    19.2400       502
    19.4600       536
    19.6800       530
    19.9000       566
    20.1200       574
    20.3400       580
    20.5600       564
    20.7800       548
    21.0000       534
    21.2200       600
    21.4400       566
    21.6600       614
    21.8800       628
    22.1000       578
    22.3200       614
    22.5400       608
    22.7600       614
    22.9800       590
    23.2000       648
    23.4200       676
    23.6400       644
    23.8600       654
    24.0800       668
    24.3000       648
    24.5200       692
    24.7400       668
    24.9600       704
    25.1800       678
    25.4000       644
    25.6200       622
    25.8400       688
    26.0600       646
    26.2800       644
    26.5000       692
    26.7200       672
    26.9400       658
    27.1600       710
    27.3800       662
    27.6000       658
    27.8200       646
    28.0400       688
    28.2600       756
    28.4800      1066
    28.7000      1156
    28.9200       792
    29.1400       790
    29.3600       778
    29.5800       728
    29.8000       714
    30.0200       682
    30.2400       664
    30.4600       680
    30.6800       700
    30.9000       694
    31.1200       708
    31.3400       666
    31.5600       716
    31.7800       692
    32.0000       682
    32.2200       698
    32.4400       672
    32.6600       608
    32.8800       724
    33.1000       692
    33.3200       652
    33.5400       676
    33.7600       700
    33.9800       662
    34.2000       682
    34.4200       638
    34.6400       754
    34.8600       686
    35.0800       672
    35.3000       694
    35.5200       696
    35.7400       718
    35.9600       688
    36.1800       704
    36.4000       742
    36.6200       658
    36.8400       658
    37.0600       694
    37.2800       970
    37.5000       800
    37.7200       676
    37.9400       742
    38.1600       694
    38.3800       712
    38.6000       716
    38.8200       704
    39.0400       690
    39.2600       686
    39.4800       740
    39.7000       644
    39.9200       738
    40.1400       720
    40.3600       696
    40.5800       768
    40.8000       782
    41.0200       814
    41.2400       734
    41.4600       734
    41.6800       786
    41.9000       710
    42.1200       712
    42.3400       690
    42.5600       714
    42.7800       842
    43.0000       762
    43.2200       742
    43.4400       694
    43.6600       746
    43.8800       706
    44.1000       768
    44.3200       754
    44.5400       758
    44.7600       744
    44.9800       704
    45.2000       718
    45.4200       754
    45.6400       764
    45.8600       768
    46.0800       758
    46.3000       822
    46.5200       760
    46.7400       770
    46.9600       752
    47.1800       818
    47.4000       788
    47.6200       730
    47.8400       794
    48.0600       790
    48.2800       776
    48.5000       818
    48.7200       740
    48.9400       802
    49.1600       718
    49.3800       744
    49.6000       788
    49.8200       772
    50.0400       756
    50.2600       802
    50.4800       728
    50.7000       764
    50.9200       740
    51.1400       818
    51.3600       802
    51.5800       804
    51.8000       778
    52.0200       752
    52.2400       760
    52.4600       804
    52.6800       804
    52.9000       806
    53.1200       822
    53.3400       800
    53.5600       780
    53.7800       792
    54.0000       776
    54.2200       776
    54.4400       866
    54.6600       844
    54.8800       822
    55.1000       862
    55.3200       804
    55.5400       808
    55.7600       852
    55.9800       786
    56.2000       866
    56.4200      1028
    56.6400      1130
    56.8600      1000
    57.0800       914
    57.3000       834
    57.5200       816
    57.7400       860
    57.9600       804
    58.1800       856
    58.4000       830
    58.6200       830
    58.8400       842
    59.0600       870
    59.2800       930
    59.5000       856
    59.7200       834
    59.9400       826
    60.1600       820
    60.3800       802
    60.6000       812
    60.8200       822
    61.0400       822
    61.2600       784
    61.4800       798
    61.7000       812
    61.9200       790
    62.1400       774
    62.3600       778
    62.5800       804
    62.8000       762
    63.0200       838
    63.2400       838
    63.4600       868
    63.6800       808
    63.9000       804
    64.1200       848
    64.3400       836
    64.5600       868
    64.7800       804
    65.0000       882
    65.2200       838
    65.4400       836
    65.6600       846
    65.8800       808
    66.1000       806
    66.3200       828
    66.5400       758
    66.7600       840
    66.9800       830
    67.2000       800
    67.4200       864
    67.6400       830
    67.8600       862
    68.0800       802
    68.3000       852
    68.5200       844
    68.7400       848
    68.9600       794
    69.1800       798
    69.4000       802
    69.6200       848
    69.8400       798
    70.0000       792

File: 20251203 nmo.txt
/////////////////////////////////////////////////////////////////////////////////
/// Profile Data Ascii Dump (XRD)                                             ///
/////////////////////////////////////////////////////////////////////////////////

  Group     : Standard
  Data      : nmo
  File Name : nmo.RAW

# Profile Datafile
          comment             =
          date & time         = 25-12-03 13:18:58

# Measurement Condition
    X-ray tube
          target              = Cu
          voltage             = 40.0 (kV)
          current             = 30.0 (mA)
    Slits
          divergence slit     = 1.00000 (deg)
          scatter slit        = 1.00000 (deg)
          receiving slit      = 0.30000 (mm)
    Scanning
          drive axis          = Theta-2Theta
          scan range          =   10.000 -   70.000
          scan mode           = Continuous Scan
          scan speed          =   3.0000 (deg/min)
          sampling pitch      =   0.0200 (deg)
          preset time         =   0.40 (sec)

# Data      [ Total No. = 3001 ]
  <2Theta>   <   I   >
    10.0000       466
    10.2200       498
    10.4400       420
    10.6600       450
    10.8800       430
    11.1000       448
    11.3200       442
    11.5400       458
    11.7600       470
    11.9800       488
    12.2000       526
    12.4200       546
    12.6400       568
    12.8600       486
    13.0800       478
    13.3000       476
    13.5200       480
    13.7400       442
    13.9600       460
    14.1800       418
    14.4000       450
    14.6200       406
    14.8400       438
    15.0600       434
    15.2800       452
    15.5000       474
    15.7200       460
    15.9400       428
    16.1600       516
    16.3800       456
    16.6000       418
    16.8200       412
    17.0400       458
    17.2600       480
    17.4800       472
    17.7000       466
    17.9200       490
    18.1400       460
    18.3600       466
    18.5800       500
    18.8000       520
    19.0200       498
    19.2400       510
    19.4600       548
    19.6800       488
    19.9000       496
    20.1200       520
    20.3400       526
    20.5600       558
    20.7800       512
    21.0000       532
    21.2200       538
    21.4400       532
    21.6600       572
    21.8800       568
    22.1000       552
    22.3200       526
    22.5400       548
    22.7600       580
    22.9800       506
    23.2000       596
    23.4200       570
    23.6400       590
    23.8600       590
    24.0800       586
    24.3000       578
    24.5200       562
    24.7400       612
    24.9600       618
    25.1800       610
    25.4000       572
    25.6200       594
    25.8400       618
    26.0600       542
    26.2800       570
    26.5000       570
    26.7200       580
    26.9400       558
    27.1600       538
    27.3800       560
    27.6000       568
    27.8200       596
    28.0400       560
    28.2600       582
    28.4800       578
    28.7000       566
    28.9200       556
    29.1400       572
    29.3600       572
    29.5800       540
    29.8000       588
    30.0200       522
    30.2400       582
    30.4600       606
    30.6800       588
    30.9000       538
    31.1200       544
    31.3400       562
    31.5600       564
    31.7800       546
    32.0000       548
    32.2200       580
    32.4400       558
    32.6600       548
    32.8800       522
    33.1000       526
    33.3200       508
    33.5400       538
    33.7600       532
    33.9800       544
    34.2000       542
    34.4200       532
    34.6400       544
    34.8600       512
    35.0800       572
    35.3000       446
    35.5200       424
    35.7400       518
    35.9600       484
    36.1800       502
    36.4000       530
    36.6200       556
    36.8400       574
    37.0600       576
    37.2800       562
    37.5000       554
    37.7200       512
    37.9400       538
    38.1600       540
    38.3800       544
    38.6000       572
    38.8200       536
    39.0400       502
    39.2600       568
    39.4800       512
    39.7000       518
    39.9200       536
    40.1400       556
    40.3600       498
    40.5800       512
    40.8000       530
    41.0200       528
    41.2400       508
    41.4600       486
    41.6800       498
    41.9000       492
    42.1200       496
    42.3400       496
    42.5600       460
    42.7800       536
    43.0000       506
    43.2200       504
    43.4400       522
    43.6600       464
    43.8800       470
    44.1000       496
    44.3200       464
    44.5400       506
    44.7600       500
    44.9800       512
    45.2000       498
    45.4200       460
    45.6400       496
    45.8600       486
    46.0800       502
    46.3000       498
    46.5200       478
    46.7400       488
    46.9600       514
    47.1800       500
    47.4000       512
    47.6200       476
    47.8400       498
    48.0600       524
    48.2800       478
    48.5000       468
    48.7200       482
    48.9400       442
    49.1600       474
    49.3800       454
    49.6000       480
    49.8200       498
    50.0400       472
    50.2600       484
    50.4800       490
    50.7000       458
    50.9200       470
    51.1400       540
    51.3600       456
    51.5800       498
    51.8000       458
    52.0200       476
    52.2400       494
    52.4600       468
    52.6800       480
    52.9000       502
    53.1200       430
    53.3400       444
    53.5600       458
    53.7800       456
    54.0000       448
    54.2200       450
    54.4400       494
    54.6600       492
    54.8800       454
    55.1000       466
    55.3200       448
    55.5400       474
    55.7600       458
    55.9800       480
    56.2000       468
    56.4200       456
    56.6400       430
    56.8600       448
    57.0800       462
    57.3000       480
    57.5200       442
    57.7400       470
    57.9600       454
    58.1800       472
    58.4000       450
    58.6200       414
    58.8400       456
    59.0600       454
    59.2800       468
    59.5000       460
    59.7200       460
    59.9400       426
    60.1600       444
    60.3800       444
    60.6000       426
    60.8200       462
    61.0400       430
    61.2600       456
    61.4800       474
    61.7000       498
    61.9200       476
    62.1400       490
    62.3600       434
    62.5800       430
    62.8000       478
    63.0200       420
    63.2400       414
    63.4600       470
    63.6800       448
    63.9000       456
    64.1200       448
    64.3400       406
    64.5600       412
    64.7800       426
    65.0000       424
    65.2200       446
    65.4400       430
    65.6600       494
    65.8800       460
    66.1000       490
    66.3200       438
    66.5400       436
    66.7600       440
    66.9800       470
    67.2000       454
    67.4200       426
    67.6400       446
    67.8600       438
    68.0800       422
    68.3000       428
    68.5200       380
    68.7400       434
    68.9600       422
    69.1800       424
    69.4000       424
    69.6200       442
    69.8400       426
    70.0000       424